Measured on 11:02:30 29/11/2024
Operated by: 	 Ennio, Kristof 
Comments: 	 
Projectile: 	 Ar

Energy (V): 	4000.000
Extractor (%): 	96.000
Focus 1 (%): 	67.000
Focus 2 (%): 	0.000
Emission (uA): 	10000.000
Pox X (um): 	0.000
Width X (um): 	0.000
Pos Y (um): 	0.000
Width Y (um): 	0.000
Time per dot (us): 	50.000

RFA#: 	2.000
x (mm): 	12.500
y (mm): 	12.500
z (mm): 	30.000
Suppressor voltage (V): 	-142.000
Comments: 	 2 retarding grids, suppr no grid small diameter

Wien voltage (V): 	135.400

Sweep start (kV): 	3.500
Sweep end (kV): 	4.200
Sweep step (V): 	1.000
Measurement time (s): 	0.100
Integration time (s): 	0.100
PLC: 	5.000
Points per step: 	1.000

Retading voltage (kV)	Mean current FC (A)
3.500E+0	6.218E-10
3.501E+0	4.659E-10
3.502E+0	4.674E-10
3.503E+0	4.702E-10
3.504E+0	4.694E-10
3.505E+0	4.701E-10
3.506E+0	4.711E-10
3.507E+0	4.732E-10
3.508E+0	4.735E-10
3.509E+0	4.746E-10
3.510E+0	4.726E-10
3.511E+0	4.751E-10
3.512E+0	4.750E-10
3.513E+0	4.756E-10
3.514E+0	4.763E-10
3.515E+0	4.760E-10
3.516E+0	4.757E-10
3.517E+0	4.766E-10
3.518E+0	4.760E-10
3.519E+0	4.759E-10
3.520E+0	4.769E-10
3.521E+0	4.773E-10
3.522E+0	4.772E-10
3.523E+0	4.776E-10
3.524E+0	4.787E-10
3.525E+0	4.790E-10
3.526E+0	4.791E-10
3.527E+0	4.798E-10
3.528E+0	4.795E-10
3.529E+0	4.796E-10
3.530E+0	4.796E-10
3.531E+0	4.804E-10
3.532E+0	4.798E-10
3.533E+0	4.792E-10
3.534E+0	4.801E-10
3.535E+0	4.813E-10
3.536E+0	4.828E-10
3.537E+0	4.829E-10
3.538E+0	4.827E-10
3.539E+0	4.839E-10
3.540E+0	4.837E-10
3.541E+0	4.853E-10
3.542E+0	4.845E-10
3.543E+0	4.847E-10
3.544E+0	4.846E-10
3.545E+0	4.836E-10
3.546E+0	4.844E-10
3.547E+0	4.862E-10
3.548E+0	4.857E-10
3.549E+0	4.856E-10
3.550E+0	4.854E-10
3.551E+0	4.860E-10
3.552E+0	4.854E-10
3.553E+0	4.865E-10
3.554E+0	4.871E-10
3.555E+0	4.882E-10
3.556E+0	4.878E-10
3.557E+0	4.885E-10
3.558E+0	4.877E-10
3.559E+0	4.896E-10
3.560E+0	4.885E-10
3.561E+0	4.874E-10
3.562E+0	4.879E-10
3.563E+0	4.864E-10
3.564E+0	4.877E-10
3.565E+0	4.882E-10
3.566E+0	4.889E-10
3.567E+0	4.884E-10
3.568E+0	4.868E-10
3.569E+0	4.885E-10
3.570E+0	4.877E-10
3.571E+0	4.886E-10
3.572E+0	4.885E-10
3.573E+0	4.900E-10
3.574E+0	4.907E-10
3.575E+0	4.891E-10
3.576E+0	4.895E-10
3.577E+0	4.897E-10
3.578E+0	4.901E-10
3.579E+0	4.905E-10
3.580E+0	4.910E-10
3.581E+0	4.895E-10
3.582E+0	4.897E-10
3.583E+0	4.908E-10
3.584E+0	4.903E-10
3.585E+0	4.907E-10
3.586E+0	4.911E-10
3.587E+0	4.911E-10
3.588E+0	4.902E-10
3.589E+0	4.908E-10
3.590E+0	4.895E-10
3.591E+0	4.896E-10
3.592E+0	4.897E-10
3.593E+0	4.910E-10
3.594E+0	4.916E-10
3.595E+0	4.895E-10
3.596E+0	4.914E-10
3.597E+0	4.906E-10
3.598E+0	4.897E-10
3.599E+0	4.894E-10
3.600E+0	4.905E-10
3.601E+0	4.894E-10
3.602E+0	4.894E-10
3.603E+0	4.901E-10
3.604E+0	4.912E-10
3.605E+0	4.905E-10
3.606E+0	4.900E-10
3.607E+0	4.918E-10
3.608E+0	4.903E-10
3.609E+0	4.896E-10
3.610E+0	4.899E-10
3.611E+0	4.905E-10
3.612E+0	4.912E-10
3.613E+0	4.905E-10
3.614E+0	4.916E-10
3.615E+0	4.912E-10
3.616E+0	4.903E-10
3.617E+0	4.895E-10
3.618E+0	4.905E-10
3.619E+0	4.916E-10
3.620E+0	4.910E-10
3.621E+0	4.913E-10
3.622E+0	4.932E-10
3.623E+0	4.931E-10
3.624E+0	4.926E-10
3.625E+0	4.910E-10
3.626E+0	4.908E-10
3.627E+0	4.908E-10
3.628E+0	4.908E-10
3.629E+0	4.926E-10
3.630E+0	4.941E-10
3.631E+0	4.934E-10
3.632E+0	4.928E-10
3.633E+0	4.924E-10
3.634E+0	4.936E-10
3.635E+0	4.924E-10
3.636E+0	4.937E-10
3.637E+0	4.926E-10
3.638E+0	4.927E-10
3.639E+0	4.920E-10
3.640E+0	4.913E-10
3.641E+0	4.924E-10
3.642E+0	4.917E-10
3.643E+0	4.915E-10
3.644E+0	4.923E-10
3.645E+0	4.922E-10
3.646E+0	4.925E-10
3.647E+0	4.930E-10
3.648E+0	4.946E-10
3.649E+0	4.915E-10
3.650E+0	4.927E-10
3.651E+0	4.930E-10
3.652E+0	4.931E-10
3.653E+0	4.924E-10
3.654E+0	4.940E-10
3.655E+0	4.934E-10
3.656E+0	4.932E-10
3.657E+0	4.927E-10
3.658E+0	4.922E-10
3.659E+0	4.930E-10
3.660E+0	4.932E-10
3.661E+0	4.928E-10
3.662E+0	4.936E-10
3.663E+0	4.925E-10
3.664E+0	4.934E-10
3.665E+0	4.917E-10
3.666E+0	4.930E-10
3.667E+0	4.931E-10
3.668E+0	4.920E-10
3.669E+0	4.937E-10
3.670E+0	4.933E-10
3.671E+0	4.928E-10
3.672E+0	4.936E-10
3.673E+0	4.940E-10
3.674E+0	4.950E-10
3.675E+0	4.927E-10
3.676E+0	4.947E-10
3.677E+0	4.940E-10
3.678E+0	4.962E-10
3.679E+0	4.965E-10
3.680E+0	4.959E-10
3.681E+0	4.963E-10
3.682E+0	4.968E-10
3.683E+0	4.965E-10
3.684E+0	4.978E-10
3.685E+0	4.993E-10
3.686E+0	4.982E-10
3.687E+0	4.983E-10
3.688E+0	4.982E-10
3.689E+0	4.978E-10
3.690E+0	4.984E-10
3.691E+0	4.983E-10
3.692E+0	4.978E-10
3.693E+0	4.985E-10
3.694E+0	4.981E-10
3.695E+0	4.991E-10
3.696E+0	4.989E-10
3.697E+0	4.990E-10
3.698E+0	4.994E-10
3.699E+0	4.987E-10
3.700E+0	4.982E-10
3.701E+0	5.000E-10
3.702E+0	4.998E-10
3.703E+0	5.002E-10
3.704E+0	4.997E-10
3.705E+0	5.009E-10
3.706E+0	5.014E-10
3.707E+0	5.025E-10
3.708E+0	5.024E-10
3.709E+0	5.016E-10
3.710E+0	5.021E-10
3.711E+0	5.011E-10
3.712E+0	5.012E-10
3.713E+0	5.000E-10
3.714E+0	5.002E-10
3.715E+0	5.005E-10
3.716E+0	4.994E-10
3.717E+0	4.988E-10
3.718E+0	5.015E-10
3.719E+0	5.023E-10
3.720E+0	5.016E-10
3.721E+0	5.020E-10
3.722E+0	5.012E-10
3.723E+0	5.027E-10
3.724E+0	5.031E-10
3.725E+0	5.036E-10
3.726E+0	5.037E-10
3.727E+0	5.047E-10
3.728E+0	5.054E-10
3.729E+0	5.049E-10
3.730E+0	5.044E-10
3.731E+0	5.046E-10
3.732E+0	5.044E-10
3.733E+0	5.048E-10
3.734E+0	5.033E-10
3.735E+0	5.042E-10
3.736E+0	5.040E-10
3.737E+0	5.034E-10
3.738E+0	5.039E-10
3.739E+0	5.041E-10
3.740E+0	5.045E-10
3.741E+0	5.044E-10
3.742E+0	5.037E-10
3.743E+0	5.029E-10
3.744E+0	5.033E-10
3.745E+0	5.034E-10
3.746E+0	5.032E-10
3.747E+0	5.023E-10
3.748E+0	5.048E-10
3.749E+0	5.038E-10
3.750E+0	5.048E-10
3.751E+0	5.041E-10
3.752E+0	5.053E-10
3.753E+0	5.070E-10
3.754E+0	5.058E-10
3.755E+0	5.055E-10
3.756E+0	5.065E-10
3.757E+0	5.065E-10
3.758E+0	5.064E-10
3.759E+0	5.059E-10
3.760E+0	5.060E-10
3.761E+0	5.048E-10
3.762E+0	5.061E-10
3.763E+0	5.064E-10
3.764E+0	5.061E-10
3.765E+0	5.052E-10
3.766E+0	5.044E-10
3.767E+0	5.039E-10
3.768E+0	5.052E-10
3.769E+0	5.047E-10
3.770E+0	5.055E-10
3.771E+0	5.067E-10
3.772E+0	5.072E-10
3.773E+0	5.046E-10
3.774E+0	5.057E-10
3.775E+0	5.043E-10
3.776E+0	5.045E-10
3.777E+0	5.035E-10
3.778E+0	5.014E-10
3.779E+0	5.025E-10
3.780E+0	5.041E-10
3.781E+0	5.013E-10
3.782E+0	5.024E-10
3.783E+0	5.017E-10
3.784E+0	5.024E-10
3.785E+0	5.024E-10
3.786E+0	5.030E-10
3.787E+0	5.001E-10
3.788E+0	5.009E-10
3.789E+0	5.005E-10
3.790E+0	5.004E-10
3.791E+0	4.992E-10
3.792E+0	4.983E-10
3.793E+0	4.963E-10
3.794E+0	4.978E-10
3.795E+0	4.969E-10
3.796E+0	4.957E-10
3.797E+0	4.963E-10
3.798E+0	4.947E-10
3.799E+0	4.952E-10
3.800E+0	4.937E-10
3.801E+0	4.944E-10
3.802E+0	4.933E-10
3.803E+0	4.884E-10
3.804E+0	4.899E-10
3.805E+0	4.894E-10
3.806E+0	4.899E-10
3.807E+0	4.876E-10
3.808E+0	4.860E-10
3.809E+0	4.863E-10
3.810E+0	4.845E-10
3.811E+0	4.835E-10
3.812E+0	4.825E-10
3.813E+0	4.819E-10
3.814E+0	4.814E-10
3.815E+0	4.782E-10
3.816E+0	4.760E-10
3.817E+0	4.763E-10
3.818E+0	4.753E-10
3.819E+0	4.734E-10
3.820E+0	4.719E-10
3.821E+0	4.724E-10
3.822E+0	4.713E-10
3.823E+0	4.686E-10
3.824E+0	4.653E-10
3.825E+0	4.658E-10
3.826E+0	4.632E-10
3.827E+0	4.615E-10
3.828E+0	4.591E-10
3.829E+0	4.583E-10
3.830E+0	4.552E-10
3.831E+0	4.530E-10
3.832E+0	4.523E-10
3.833E+0	4.520E-10
3.834E+0	4.478E-10
3.835E+0	4.480E-10
3.836E+0	4.447E-10
3.837E+0	4.440E-10
3.838E+0	4.413E-10
3.839E+0	4.388E-10
3.840E+0	4.384E-10
3.841E+0	4.333E-10
3.842E+0	4.318E-10
3.843E+0	4.322E-10
3.844E+0	4.296E-10
3.845E+0	4.283E-10
3.846E+0	4.228E-10
3.847E+0	4.214E-10
3.848E+0	4.196E-10
3.849E+0	4.192E-10
3.850E+0	4.156E-10
3.851E+0	4.151E-10
3.852E+0	4.152E-10
3.853E+0	4.122E-10
3.854E+0	4.106E-10
3.855E+0	4.096E-10
3.856E+0	4.074E-10
3.857E+0	4.042E-10
3.858E+0	4.018E-10
3.859E+0	3.999E-10
3.860E+0	3.985E-10
3.861E+0	3.969E-10
3.862E+0	3.937E-10
3.863E+0	3.925E-10
3.864E+0	3.885E-10
3.865E+0	3.885E-10
3.866E+0	3.850E-10
3.867E+0	3.826E-10
3.868E+0	3.799E-10
3.869E+0	3.780E-10
3.870E+0	3.739E-10
3.871E+0	3.728E-10
3.872E+0	3.698E-10
3.873E+0	3.681E-10
3.874E+0	3.656E-10
3.875E+0	3.631E-10
3.876E+0	3.582E-10
3.877E+0	3.579E-10
3.878E+0	3.565E-10
3.879E+0	3.522E-10
3.880E+0	3.482E-10
3.881E+0	3.474E-10
3.882E+0	3.449E-10
3.883E+0	3.423E-10
3.884E+0	3.381E-10
3.885E+0	3.361E-10
3.886E+0	3.341E-10
3.887E+0	3.307E-10
3.888E+0	3.282E-10
3.889E+0	3.253E-10
3.890E+0	3.232E-10
3.891E+0	3.222E-10
3.892E+0	3.193E-10
3.893E+0	3.174E-10
3.894E+0	3.157E-10
3.895E+0	3.124E-10
3.896E+0	3.117E-10
3.897E+0	3.115E-10
3.898E+0	3.094E-10
3.899E+0	3.068E-10
3.900E+0	3.051E-10
3.901E+0	3.042E-10
3.902E+0	3.017E-10
3.903E+0	2.987E-10
3.904E+0	2.984E-10
3.905E+0	2.967E-10
3.906E+0	2.938E-10
3.907E+0	2.907E-10
3.908E+0	2.908E-10
3.909E+0	2.886E-10
3.910E+0	2.876E-10
3.911E+0	2.865E-10
3.912E+0	2.854E-10
3.913E+0	2.846E-10
3.914E+0	2.838E-10
3.915E+0	2.818E-10
3.916E+0	2.823E-10
3.917E+0	2.819E-10
3.918E+0	2.798E-10
3.919E+0	2.790E-10
3.920E+0	2.772E-10
3.921E+0	2.758E-10
3.922E+0	2.751E-10
3.923E+0	2.750E-10
3.924E+0	2.728E-10
3.925E+0	2.722E-10
3.926E+0	2.708E-10
3.927E+0	2.676E-10
3.928E+0	2.686E-10
3.929E+0	2.663E-10
3.930E+0	2.656E-10
3.931E+0	2.650E-10
3.932E+0	2.631E-10
3.933E+0	2.621E-10
3.934E+0	2.626E-10
3.935E+0	2.609E-10
3.936E+0	2.601E-10
3.937E+0	2.593E-10
3.938E+0	2.578E-10
3.939E+0	2.563E-10
3.940E+0	2.550E-10
3.941E+0	2.546E-10
3.942E+0	2.539E-10
3.943E+0	2.525E-10
3.944E+0	2.514E-10
3.945E+0	2.492E-10
3.946E+0	2.481E-10
3.947E+0	2.469E-10
3.948E+0	2.441E-10
3.949E+0	2.428E-10
3.950E+0	2.416E-10
3.951E+0	2.391E-10
3.952E+0	2.371E-10
3.953E+0	2.352E-10
3.954E+0	2.344E-10
3.955E+0	2.314E-10
3.956E+0	2.287E-10
3.957E+0	2.270E-10
3.958E+0	2.247E-10
3.959E+0	2.232E-10
3.960E+0	2.200E-10
3.961E+0	2.178E-10
3.962E+0	2.160E-10
3.963E+0	2.138E-10
3.964E+0	2.112E-10
3.965E+0	2.089E-10
3.966E+0	2.046E-10
3.967E+0	2.029E-10
3.968E+0	2.015E-10
3.969E+0	1.988E-10
3.970E+0	1.962E-10
3.971E+0	1.939E-10
3.972E+0	1.904E-10
3.973E+0	1.883E-10
3.974E+0	1.856E-10
3.975E+0	1.834E-10
3.976E+0	1.799E-10
3.977E+0	1.756E-10
3.978E+0	1.721E-10
3.979E+0	1.697E-10
3.980E+0	1.660E-10
3.981E+0	1.614E-10
3.982E+0	1.578E-10
3.983E+0	1.553E-10
3.984E+0	1.504E-10
3.985E+0	1.475E-10
3.986E+0	1.427E-10
3.987E+0	1.378E-10
3.988E+0	1.349E-10
3.989E+0	1.307E-10
3.990E+0	1.267E-10
3.991E+0	1.221E-10
3.992E+0	1.188E-10
3.993E+0	1.154E-10
3.994E+0	1.104E-10
3.995E+0	1.055E-10
3.996E+0	1.018E-10
3.997E+0	9.671E-11
3.998E+0	9.214E-11
3.999E+0	8.700E-11
4.000E+0	8.175E-11
4.001E+0	7.810E-11
4.002E+0	7.212E-11
4.003E+0	6.570E-11
4.004E+0	5.924E-11
4.005E+0	5.423E-11
4.006E+0	4.674E-11
4.007E+0	3.796E-11
4.008E+0	2.891E-11
4.009E+0	2.177E-11
4.010E+0	1.222E-11
4.011E+0	2.417E-12
4.012E+0	-6.229E-12
4.013E+0	-1.196E-11
4.014E+0	-1.638E-11
4.015E+0	-1.802E-11
4.016E+0	-1.828E-11
4.017E+0	-1.828E-11
4.018E+0	-1.824E-11
4.019E+0	-1.827E-11
4.020E+0	-1.834E-11
4.021E+0	-1.832E-11
4.022E+0	-1.836E-11
4.023E+0	-1.835E-11
4.024E+0	-1.840E-11
4.025E+0	-1.843E-11
4.026E+0	-1.846E-11
4.027E+0	-1.842E-11
4.028E+0	-1.841E-11
4.029E+0	-1.846E-11
4.030E+0	-1.850E-11
4.031E+0	-1.843E-11
4.032E+0	-1.841E-11
4.033E+0	-1.839E-11
4.034E+0	-1.838E-11
4.035E+0	-1.837E-11
4.036E+0	-1.833E-11
4.037E+0	-1.836E-11
4.038E+0	-1.840E-11
4.039E+0	-1.836E-11
4.040E+0	-1.834E-11
4.041E+0	-1.829E-11
4.042E+0	-1.825E-11
4.043E+0	-1.817E-11
4.044E+0	-1.819E-11
4.045E+0	-1.820E-11
4.046E+0	-1.810E-11
4.047E+0	-1.811E-11
4.048E+0	-1.812E-11
4.049E+0	-1.804E-11
4.050E+0	-1.800E-11
4.051E+0	-1.802E-11
4.052E+0	-1.798E-11
4.053E+0	-1.794E-11
4.054E+0	-1.788E-11
4.055E+0	-1.786E-11
4.056E+0	-1.779E-11
4.057E+0	-1.787E-11
4.058E+0	-1.768E-11
4.059E+0	-1.776E-11
4.060E+0	-1.775E-11
