Measured on 13:37:08 29/11/2024
Operated by: 	 Ennio, Kristof 
Comments: 	 
Projectile: 	 Ar

Energy (V): 	4000.000
Extractor (%): 	96.000
Focus 1 (%): 	67.000
Focus 2 (%): 	0.000
Emission (uA): 	10000.000
Pox X (um): 	0.000
Width X (um): 	0.000
Pos Y (um): 	0.000
Width Y (um): 	0.000
Time per dot (us): 	50.000

RFA#: 	2.000
x (mm): 	12.500
y (mm): 	12.500
z (mm): 	30.000
Suppressor voltage (V): 	-450.000
Comments: 	 2 retarding grids, suppr no grid small diameter

Wien voltage (V): 	135.400

Sweep start (kV): 	3.500
Sweep end (kV): 	4.200
Sweep step (V): 	1.000
Measurement time (s): 	0.100
Integration time (s): 	0.100
PLC: 	5.000
Points per step: 	1.000

Retading voltage (kV)	Mean current FC (A)
3.500E+0	7.244E-10
3.501E+0	2.048E-10
3.502E+0	2.048E-10
3.503E+0	2.051E-10
3.504E+0	2.046E-10
3.505E+0	2.051E-10
3.506E+0	2.057E-10
3.507E+0	2.058E-10
3.508E+0	2.062E-10
3.509E+0	2.062E-10
3.510E+0	2.061E-10
3.511E+0	2.062E-10
3.512E+0	2.065E-10
3.513E+0	2.061E-10
3.514E+0	2.063E-10
3.515E+0	2.067E-10
3.516E+0	2.075E-10
3.517E+0	2.072E-10
3.518E+0	2.073E-10
3.519E+0	2.068E-10
3.520E+0	2.073E-10
3.521E+0	2.066E-10
3.522E+0	2.073E-10
3.523E+0	2.072E-10
3.524E+0	2.071E-10
3.525E+0	2.076E-10
3.526E+0	2.078E-10
3.527E+0	2.078E-10
3.528E+0	2.084E-10
3.529E+0	2.078E-10
3.530E+0	2.079E-10
3.531E+0	2.080E-10
3.532E+0	2.081E-10
3.533E+0	2.078E-10
3.534E+0	2.078E-10
3.535E+0	2.076E-10
3.536E+0	2.079E-10
3.537E+0	2.084E-10
3.538E+0	2.085E-10
3.539E+0	2.080E-10
3.540E+0	2.078E-10
3.541E+0	2.081E-10
3.542E+0	2.085E-10
3.543E+0	2.084E-10
3.544E+0	2.086E-10
3.545E+0	2.083E-10
3.546E+0	2.083E-10
3.547E+0	2.083E-10
3.548E+0	2.085E-10
3.549E+0	2.087E-10
3.550E+0	2.086E-10
3.551E+0	2.090E-10
3.552E+0	2.087E-10
3.553E+0	2.088E-10
3.554E+0	2.091E-10
3.555E+0	2.091E-10
3.556E+0	2.087E-10
3.557E+0	2.093E-10
3.558E+0	2.092E-10
3.559E+0	2.096E-10
3.560E+0	2.093E-10
3.561E+0	2.100E-10
3.562E+0	2.100E-10
3.563E+0	2.100E-10
3.564E+0	2.096E-10
3.565E+0	2.095E-10
3.566E+0	2.094E-10
3.567E+0	2.093E-10
3.568E+0	2.098E-10
3.569E+0	2.099E-10
3.570E+0	2.108E-10
3.571E+0	2.102E-10
3.572E+0	2.107E-10
3.573E+0	2.108E-10
3.574E+0	2.103E-10
3.575E+0	2.104E-10
3.576E+0	2.103E-10
3.577E+0	2.102E-10
3.578E+0	2.110E-10
3.579E+0	2.108E-10
3.580E+0	2.109E-10
3.581E+0	2.107E-10
3.582E+0	2.106E-10
3.583E+0	2.107E-10
3.584E+0	2.105E-10
3.585E+0	2.110E-10
3.586E+0	2.110E-10
3.587E+0	2.107E-10
3.588E+0	2.104E-10
3.589E+0	2.107E-10
3.590E+0	2.108E-10
3.591E+0	2.103E-10
3.592E+0	2.102E-10
3.593E+0	2.103E-10
3.594E+0	2.109E-10
3.595E+0	2.107E-10
3.596E+0	2.107E-10
3.597E+0	2.109E-10
3.598E+0	2.109E-10
3.599E+0	2.099E-10
3.600E+0	2.102E-10
3.601E+0	2.101E-10
3.602E+0	2.108E-10
3.603E+0	2.100E-10
3.604E+0	2.102E-10
3.605E+0	2.099E-10
3.606E+0	2.104E-10
3.607E+0	2.102E-10
3.608E+0	2.099E-10
3.609E+0	2.095E-10
3.610E+0	2.100E-10
3.611E+0	2.093E-10
3.612E+0	2.098E-10
3.613E+0	2.104E-10
3.614E+0	2.096E-10
3.615E+0	2.101E-10
3.616E+0	2.096E-10
3.617E+0	2.097E-10
3.618E+0	2.094E-10
3.619E+0	2.094E-10
3.620E+0	2.096E-10
3.621E+0	2.101E-10
3.622E+0	2.097E-10
3.623E+0	2.096E-10
3.624E+0	2.099E-10
3.625E+0	2.100E-10
3.626E+0	2.103E-10
3.627E+0	2.106E-10
3.628E+0	2.109E-10
3.629E+0	2.105E-10
3.630E+0	2.098E-10
3.631E+0	2.098E-10
3.632E+0	2.103E-10
3.633E+0	2.093E-10
3.634E+0	2.098E-10
3.635E+0	2.098E-10
3.636E+0	2.098E-10
3.637E+0	2.098E-10
3.638E+0	2.103E-10
3.639E+0	2.099E-10
3.640E+0	2.099E-10
3.641E+0	2.101E-10
3.642E+0	2.100E-10
3.643E+0	2.096E-10
3.644E+0	2.092E-10
3.645E+0	2.095E-10
3.646E+0	2.091E-10
3.647E+0	2.089E-10
3.648E+0	2.093E-10
3.649E+0	2.093E-10
3.650E+0	2.096E-10
3.651E+0	2.094E-10
3.652E+0	2.098E-10
3.653E+0	2.095E-10
3.654E+0	2.093E-10
3.655E+0	2.093E-10
3.656E+0	2.091E-10
3.657E+0	2.093E-10
3.658E+0	2.085E-10
3.659E+0	2.090E-10
3.660E+0	2.088E-10
3.661E+0	2.088E-10
3.662E+0	2.084E-10
3.663E+0	2.088E-10
3.664E+0	2.082E-10
3.665E+0	2.083E-10
3.666E+0	2.082E-10
3.667E+0	2.089E-10
3.668E+0	2.088E-10
3.669E+0	2.087E-10
3.670E+0	2.086E-10
3.671E+0	2.090E-10
3.672E+0	2.088E-10
3.673E+0	2.080E-10
3.674E+0	2.089E-10
3.675E+0	2.086E-10
3.676E+0	2.088E-10
3.677E+0	2.088E-10
3.678E+0	2.090E-10
3.679E+0	2.087E-10
3.680E+0	2.092E-10
3.681E+0	2.087E-10
3.682E+0	2.087E-10
3.683E+0	2.093E-10
3.684E+0	2.090E-10
3.685E+0	2.091E-10
3.686E+0	2.094E-10
3.687E+0	2.088E-10
3.688E+0	2.087E-10
3.689E+0	2.088E-10
3.690E+0	2.095E-10
3.691E+0	2.095E-10
3.692E+0	2.086E-10
3.693E+0	2.088E-10
3.694E+0	2.094E-10
3.695E+0	2.101E-10
3.696E+0	2.093E-10
3.697E+0	2.092E-10
3.698E+0	2.095E-10
3.699E+0	2.098E-10
3.700E+0	2.097E-10
3.701E+0	2.089E-10
3.702E+0	2.094E-10
3.703E+0	2.088E-10
3.704E+0	2.089E-10
3.705E+0	2.087E-10
3.706E+0	2.098E-10
3.707E+0	2.087E-10
3.708E+0	2.091E-10
3.709E+0	2.088E-10
3.710E+0	2.093E-10
3.711E+0	2.093E-10
3.712E+0	2.089E-10
3.713E+0	2.097E-10
3.714E+0	2.096E-10
3.715E+0	2.093E-10
3.716E+0	2.094E-10
3.717E+0	2.089E-10
3.718E+0	2.090E-10
3.719E+0	2.086E-10
3.720E+0	2.093E-10
3.721E+0	2.093E-10
3.722E+0	2.089E-10
3.723E+0	2.093E-10
3.724E+0	2.094E-10
3.725E+0	2.093E-10
3.726E+0	2.089E-10
3.727E+0	2.090E-10
3.728E+0	2.082E-10
3.729E+0	2.084E-10
3.730E+0	2.088E-10
3.731E+0	2.088E-10
3.732E+0	2.085E-10
3.733E+0	2.080E-10
3.734E+0	2.085E-10
3.735E+0	2.083E-10
3.736E+0	2.080E-10
3.737E+0	2.081E-10
3.738E+0	2.080E-10
3.739E+0	2.080E-10
3.740E+0	2.084E-10
3.741E+0	2.082E-10
3.742E+0	2.081E-10
3.743E+0	2.080E-10
3.744E+0	2.078E-10
3.745E+0	2.076E-10
3.746E+0	2.078E-10
3.747E+0	2.078E-10
3.748E+0	2.080E-10
3.749E+0	2.079E-10
3.750E+0	2.069E-10
3.751E+0	2.073E-10
3.752E+0	2.075E-10
3.753E+0	2.068E-10
3.754E+0	2.073E-10
3.755E+0	2.066E-10
3.756E+0	2.068E-10
3.757E+0	2.071E-10
3.758E+0	2.068E-10
3.759E+0	2.067E-10
3.760E+0	2.060E-10
3.761E+0	2.060E-10
3.762E+0	2.060E-10
3.763E+0	2.056E-10
3.764E+0	2.060E-10
3.765E+0	2.059E-10
3.766E+0	2.052E-10
3.767E+0	2.055E-10
3.768E+0	2.060E-10
3.769E+0	2.055E-10
3.770E+0	2.047E-10
3.771E+0	2.047E-10
3.772E+0	2.051E-10
3.773E+0	2.044E-10
3.774E+0	2.045E-10
3.775E+0	2.037E-10
3.776E+0	2.034E-10
3.777E+0	2.032E-10
3.778E+0	2.027E-10
3.779E+0	2.028E-10
3.780E+0	2.028E-10
3.781E+0	2.018E-10
3.782E+0	2.016E-10
3.783E+0	2.009E-10
3.784E+0	2.013E-10
3.785E+0	2.010E-10
3.786E+0	2.004E-10
3.787E+0	1.998E-10
3.788E+0	2.002E-10
3.789E+0	1.998E-10
3.790E+0	1.988E-10
3.791E+0	1.991E-10
3.792E+0	1.991E-10
3.793E+0	1.988E-10
3.794E+0	1.982E-10
3.795E+0	1.981E-10
3.796E+0	1.976E-10
3.797E+0	1.971E-10
3.798E+0	1.967E-10
3.799E+0	1.965E-10
3.800E+0	1.965E-10
3.801E+0	1.959E-10
3.802E+0	1.954E-10
3.803E+0	1.949E-10
3.804E+0	1.944E-10
3.805E+0	1.933E-10
3.806E+0	1.928E-10
3.807E+0	1.927E-10
3.808E+0	1.921E-10
3.809E+0	1.911E-10
3.810E+0	1.902E-10
3.811E+0	1.894E-10
3.812E+0	1.892E-10
3.813E+0	1.890E-10
3.814E+0	1.884E-10
3.815E+0	1.884E-10
3.816E+0	1.876E-10
3.817E+0	1.871E-10
3.818E+0	1.864E-10
3.819E+0	1.860E-10
3.820E+0	1.850E-10
3.821E+0	1.845E-10
3.822E+0	1.842E-10
3.823E+0	1.835E-10
3.824E+0	1.828E-10
3.825E+0	1.821E-10
3.826E+0	1.816E-10
3.827E+0	1.813E-10
3.828E+0	1.808E-10
3.829E+0	1.798E-10
3.830E+0	1.798E-10
3.831E+0	1.788E-10
3.832E+0	1.776E-10
3.833E+0	1.779E-10
3.834E+0	1.772E-10
3.835E+0	1.773E-10
3.836E+0	1.760E-10
3.837E+0	1.757E-10
3.838E+0	1.752E-10
3.839E+0	1.738E-10
3.840E+0	1.733E-10
3.841E+0	1.725E-10
3.842E+0	1.724E-10
3.843E+0	1.711E-10
3.844E+0	1.704E-10
3.845E+0	1.701E-10
3.846E+0	1.694E-10
3.847E+0	1.681E-10
3.848E+0	1.676E-10
3.849E+0	1.676E-10
3.850E+0	1.661E-10
3.851E+0	1.657E-10
3.852E+0	1.658E-10
3.853E+0	1.648E-10
3.854E+0	1.641E-10
3.855E+0	1.634E-10
3.856E+0	1.628E-10
3.857E+0	1.624E-10
3.858E+0	1.616E-10
3.859E+0	1.609E-10
3.860E+0	1.604E-10
3.861E+0	1.594E-10
3.862E+0	1.592E-10
3.863E+0	1.586E-10
3.864E+0	1.577E-10
3.865E+0	1.566E-10
3.866E+0	1.560E-10
3.867E+0	1.553E-10
3.868E+0	1.548E-10
3.869E+0	1.541E-10
3.870E+0	1.530E-10
3.871E+0	1.521E-10
3.872E+0	1.512E-10
3.873E+0	1.505E-10
3.874E+0	1.498E-10
3.875E+0	1.493E-10
3.876E+0	1.483E-10
3.877E+0	1.479E-10
3.878E+0	1.468E-10
3.879E+0	1.461E-10
3.880E+0	1.454E-10
3.881E+0	1.440E-10
3.882E+0	1.436E-10
3.883E+0	1.428E-10
3.884E+0	1.424E-10
3.885E+0	1.413E-10
3.886E+0	1.399E-10
3.887E+0	1.397E-10
3.888E+0	1.382E-10
3.889E+0	1.375E-10
3.890E+0	1.372E-10
3.891E+0	1.366E-10
3.892E+0	1.362E-10
3.893E+0	1.358E-10
3.894E+0	1.353E-10
3.895E+0	1.350E-10
3.896E+0	1.340E-10
3.897E+0	1.338E-10
3.898E+0	1.335E-10
3.899E+0	1.332E-10
3.900E+0	1.321E-10
3.901E+0	1.314E-10
3.902E+0	1.320E-10
3.903E+0	1.313E-10
3.904E+0	1.312E-10
3.905E+0	1.303E-10
3.906E+0	1.300E-10
3.907E+0	1.293E-10
3.908E+0	1.287E-10
3.909E+0	1.284E-10
3.910E+0	1.281E-10
3.911E+0	1.275E-10
3.912E+0	1.271E-10
3.913E+0	1.267E-10
3.914E+0	1.263E-10
3.915E+0	1.259E-10
3.916E+0	1.253E-10
3.917E+0	1.245E-10
3.918E+0	1.246E-10
3.919E+0	1.241E-10
3.920E+0	1.240E-10
3.921E+0	1.237E-10
3.922E+0	1.228E-10
3.923E+0	1.221E-10
3.924E+0	1.224E-10
3.925E+0	1.217E-10
3.926E+0	1.212E-10
3.927E+0	1.206E-10
3.928E+0	1.203E-10
3.929E+0	1.194E-10
3.930E+0	1.188E-10
3.931E+0	1.186E-10
3.932E+0	1.180E-10
3.933E+0	1.178E-10
3.934E+0	1.173E-10
3.935E+0	1.168E-10
3.936E+0	1.162E-10
3.937E+0	1.159E-10
3.938E+0	1.155E-10
3.939E+0	1.153E-10
3.940E+0	1.146E-10
3.941E+0	1.141E-10
3.942E+0	1.140E-10
3.943E+0	1.133E-10
3.944E+0	1.131E-10
3.945E+0	1.126E-10
3.946E+0	1.116E-10
3.947E+0	1.107E-10
3.948E+0	1.105E-10
3.949E+0	1.102E-10
3.950E+0	1.093E-10
3.951E+0	1.090E-10
3.952E+0	1.082E-10
3.953E+0	1.079E-10
3.954E+0	1.069E-10
3.955E+0	1.064E-10
3.956E+0	1.053E-10
3.957E+0	1.046E-10
3.958E+0	1.043E-10
3.959E+0	1.030E-10
3.960E+0	1.019E-10
3.961E+0	1.016E-10
3.962E+0	1.009E-10
3.963E+0	9.974E-11
3.964E+0	9.892E-11
3.965E+0	9.825E-11
3.966E+0	9.716E-11
3.967E+0	9.656E-11
3.968E+0	9.553E-11
3.969E+0	9.422E-11
3.970E+0	9.341E-11
3.971E+0	9.207E-11
3.972E+0	9.057E-11
3.973E+0	9.000E-11
3.974E+0	8.884E-11
3.975E+0	8.787E-11
3.976E+0	8.705E-11
3.977E+0	8.550E-11
3.978E+0	8.418E-11
3.979E+0	8.293E-11
3.980E+0	8.150E-11
3.981E+0	7.965E-11
3.982E+0	7.833E-11
3.983E+0	7.739E-11
3.984E+0	7.569E-11
3.985E+0	7.374E-11
3.986E+0	7.207E-11
3.987E+0	7.026E-11
3.988E+0	6.893E-11
3.989E+0	6.702E-11
3.990E+0	6.535E-11
3.991E+0	6.345E-11
3.992E+0	6.189E-11
3.993E+0	5.986E-11
3.994E+0	5.784E-11
3.995E+0	5.590E-11
3.996E+0	5.415E-11
3.997E+0	5.189E-11
3.998E+0	4.969E-11
3.999E+0	4.737E-11
4.000E+0	4.528E-11
4.001E+0	4.353E-11
4.002E+0	4.090E-11
4.003E+0	3.832E-11
4.004E+0	3.572E-11
4.005E+0	3.312E-11
4.006E+0	2.971E-11
4.007E+0	2.628E-11
4.008E+0	2.235E-11
4.009E+0	1.907E-11
4.010E+0	1.486E-11
4.011E+0	1.060E-11
4.012E+0	6.431E-12
4.013E+0	3.620E-12
4.014E+0	7.893E-13
4.015E+0	-7.729E-13
4.016E+0	-1.225E-12
4.017E+0	-1.275E-12
4.018E+0	-1.242E-12
4.019E+0	-1.265E-12
4.020E+0	-1.354E-12
4.021E+0	-1.301E-12
4.022E+0	-1.247E-12
4.023E+0	-1.370E-12
4.024E+0	-1.374E-12
4.025E+0	-1.402E-12
4.026E+0	-1.392E-12
4.027E+0	-1.378E-12
4.028E+0	-1.392E-12
4.029E+0	-1.486E-12
4.030E+0	-1.430E-12
4.031E+0	-1.445E-12
4.032E+0	-1.404E-12
4.033E+0	-1.451E-12
4.034E+0	-1.453E-12
4.035E+0	-1.479E-12
4.036E+0	-1.414E-12
4.037E+0	-1.518E-12
4.038E+0	-1.519E-12
4.039E+0	-1.418E-12
4.040E+0	-1.450E-12
4.041E+0	-1.502E-12
4.042E+0	-1.489E-12
4.043E+0	-1.508E-12
4.044E+0	-1.474E-12
4.045E+0	-1.513E-12
4.046E+0	-1.519E-12
4.047E+0	-1.333E-12
4.048E+0	-1.461E-12
4.049E+0	-1.513E-12
4.050E+0	-1.498E-12
4.051E+0	-1.437E-12
4.052E+0	-1.484E-12
4.053E+0	-1.462E-12
4.054E+0	-1.443E-12
4.055E+0	-1.552E-12
4.056E+0	-1.492E-12
4.057E+0	-1.449E-12
4.058E+0	-1.484E-12
4.059E+0	-1.511E-12
4.060E+0	-1.526E-12
4.061E+0	-1.478E-12
4.062E+0	-1.512E-12
4.063E+0	-1.547E-12
4.064E+0	-1.496E-12
4.065E+0	-1.509E-12
4.066E+0	-1.553E-12
4.067E+0	-1.523E-12
